domain:
  name: ADSL
  label: Subject Level Analysis Dataset

variables:
    STUDYID:
      label: Study Identifier
    USUBJID:
      label: Unique Subject Identifier
    SUBJID:
      label: Identifier for the Study
    SITEID:
      label: Study Site Identifier
    AGE:
      label: Age
    SEX:
      label: Sex
    RACE:
      label: Race
    COUNTRY:
      label: Country
    ARM:
      label: Description of Planned Arm
    ARMCD:
      label: Planned Arm Code
    ACTARM:
      label: Description of Actual Arm
    ACTARMCD:
      label: Actual Arm Code
    BMRKR1:
      label: Continous Level Biomarker 1
    BMRKR2:
      label: Cat. Biomarker 2
    STRATA1:
      label: Stratification Factor 1
    STRATA2:
      label: Stratification Factor 2
